{"patient": {"resourceType": "Patient", "id": "59b1b06d-5026-4868-affc-235633d457a0", "name": [{"use": "official", "family": "Moon", "given": ["Stephanie"]}], "gender": "male", "birthDate": "1950-05-23"}, "observation": {"resourceType": "Observation", "id": "1d4e1451-3e59-4d48-85f2-9b10f488a9d0", "status": "final", "category": [{"coding": [{"system": "http://terminology.hl7.org/CodeSystem/observation-category", "code": "vital-signs"}]}], "code": {"coding": [{"system": "http://loinc.org", "code": "85354-9", "display": "Blood pressure panel"}]}, "subject": {"reference": "Patient/59b1b06d-5026-4868-affc-235633d457a0"}, "component": [{"code": {"coding": [{"system": "http://loinc.org", "code": "8480-6", "display": "Systolic blood pressure"}]}, "valueQuantity": {"value": 122.0, "unit": "mmHg", "system": "http://unitsofmeasure.org", "code": "mm[Hg]"}}, {"code": {"coding": [{"system": "http://loinc.org", "code": "8462-4", "display": "Diastolic blood pressure"}]}, "valueQuantity": {"value": 65.0, "unit": "mmHg", "system": "http://unitsofmeasure.org", "code": "mm[Hg]"}}]}}
{"patient": {"resourceType": "Patient", "id": "e5874fb2-9466-4efd-a257-846293731cc5", "name": [{"use": "official", "family": "Cox", "given": ["Kristine"]}], "gender": "female", "birthDate": "1984-05-17"}, "observation": {"resourceType": "Observation", "id": "8bde31ec-8fb6-44b4-82a1-7b2967414a0d", "status": "final", "category": [{"coding": [{"system": "http://terminology.hl7.org/CodeSystem/observation-category", "code": "vital-signs"}]}], "code": {"coding": [{"system": "http://loinc.org", "code": "85354-9", "display": "Blood pressure panel"}]}, "subject": {"reference": "Patient/e5874fb2-9466-4efd-a257-846293731cc5"}, "component": [{"code": {"coding": [{"system": "http://loinc.org", "code": "8480-6", "display": "Systolic blood pressure"}]}, "valueQuantity": {"value": 93.0, "unit": "mmHg", "system": "http://unitsofmeasure.org", "code": "mm[Hg]"}}, {"code": {"coding": [{"system": "http://loinc.org", "code": "8462-4", "display": "Diastolic blood pressure"}]}, "valueQuantity": {"value": 78.0, "unit": "mmHg", "system": "http://unitsofmeasure.org", "code": "mm[Hg]"}}]}}
{"patient": {"resourceType": "Patient", "id": "063a8bb4-75cb-46ed-a399-0ba830a403ad", "name": [{"use": "official", "family": "Williams", "given": ["Rachel"]}], "gender": "female", "birthDate": "1998-01-25"}, "observation": {"resourceType": "Observation", "id": "9f14c10b-41c8-4fad-9bb7-1cf8f12d1942", "status": "final", "category": [{"coding": [{"system": "http://terminology.hl7.org/CodeSystem/observation-category", "code": "vital-signs"}]}], "code": {"coding": [{"system": "http://loinc.org", "code": "85354-9", "display": "Blood pressure panel"}]}, "subject": {"reference": "Patient/063a8bb4-75cb-46ed-a399-0ba830a403ad"}, "component": [{"code": {"coding": [{"system": "http://loinc.org", "code": "8480-6", "display": "Systolic blood pressure"}]}, "valueQuantity": {"value": 105.0, "unit": "mmHg", "system": "http://unitsofmeasure.org", "code": "mm[Hg]"}}, {"code": {"coding": [{"system": "http://loinc.org", "code": "8462-4", "display": "Diastolic blood pressure"}]}, "valueQuantity": {"value": 76.0, "unit": "mmHg", "system": "http://unitsofmeasure.org", "code": "mm[Hg]"}}]}}
{"patient": {"resourceType": "Patient", "id": "69487f2d-59c2-41a2-a565-e4fddad90ab1", "name": [{"use": "official", "family": "Carter", "given": ["Henry"]}], "gender": "male", "birthDate": "1993-08-14"}, "observation": {"resourceType": "Observation", "id": "d3e23783-a78c-4f05-9977-f15c36bdcfda", "status": "final", "category": [{"coding": [{"system": "http://terminology.hl7.org/CodeSystem/observation-category", "code": "vital-signs"}]}], "code": {"coding": [{"system": "http://loinc.org", "code": "85354-9", "display": "Blood pressure panel"}]}, "subject": {"reference": "Patient/69487f2d-59c2-41a2-a565-e4fddad90ab1"}, "component": [{"code": {"coding": [{"system": "http://loinc.org", "code": "8480-6", "display": "Systolic blood pressure"}]}, "valueQuantity": {"value": 137.0, "unit": "mmHg", "system": "http://unitsofmeasure.org", "code": "mm[Hg]"}}, {"code": {"coding": [{"system": "http://loinc.org", "code": "8462-4", "display": "Diastolic blood pressure"}]}, "valueQuantity": {"value": 70.0, "unit": "mmHg", "system": "http://unitsofmeasure.org", "code": "mm[Hg]"}}]}}
{"patient": {"resourceType": "Patient", "id": "535e25fc-5c0a-494d-bae0-73830aeeca79", "name": [{"use": "official", "family": "Gonzalez", "given": ["Brett"]}], "gender": "female", "birthDate": "2002-06-18"}, "observation": {"resourceType": "Observation", "id": "e3a3cb3d-3531-425c-99bd-4987de551a6c", "status": "final", "category": [{"coding": [{"system": "http://terminology.hl7.org/CodeSystem/observation-category", "code": "vital-signs"}]}], "code": {"coding": [{"system": "http://loinc.org", "code": "85354-9", "display": "Blood pressure panel"}]}, "subject": {"reference": "Patient/535e25fc-5c0a-494d-bae0-73830aeeca79"}, "component": [{"code": {"coding": [{"system": "http://loinc.org", "code": "8480-6", "display": "Systolic blood pressure"}]}, "valueQuantity": {"value": 127.0, "unit": "mmHg", "system": "http://unitsofmeasure.org", "code": "mm[Hg]"}}, {"code": {"coding": [{"system": "http://loinc.org", "code": "8462-4", "display": "Diastolic blood pressure"}]}, "valueQuantity": {"value": 76.0, "unit": "mmHg", "system": "http://unitsofmeasure.org", "code": "mm[Hg]"}}]}}
